#w   DOS(w)
-4.24535   0.225621
-4.23535   0.227316
-4.22535   0.229035
-4.21535   0.230779
-4.20535   0.232549
-4.19535   0.234345
-4.18535   0.236168
-4.17535   0.238019
-4.16535   0.239897
-4.15535   0.241805
-4.14535   0.243742
-4.13535   0.24571
-4.12535   0.247709
-4.11535   0.24974
-4.10535   0.251805
-4.09535   0.253903
-4.08535   0.256036
-4.07535   0.258206
-4.06535   0.260412
-4.05535   0.262656
-4.04535   0.26494
-4.03535   0.267264
-4.02535   0.26963
-4.01535   0.272039
-4.00535   0.274493
-3.99535   0.276992
-3.98535   0.279539
-3.97535   0.282134
-3.96535   0.28478
-3.95535   0.287479
-3.94535   0.290232
-3.93535   0.293041
-3.92535   0.295908
-3.91535   0.298835
-3.90535   0.301825
-3.89535   0.30488
-3.88535   0.308002
-3.87535   0.311195
-3.86535   0.31446
-3.85535   0.317802
-3.84535   0.321223
-3.83535   0.324727
-3.82535   0.328317
-3.81535   0.331997
-3.80535   0.335772
-3.79535   0.339645
-3.78535   0.343622
-3.77535   0.347707
-3.76535   0.351906
-3.75535   0.356224
-3.74535   0.360669
-3.73535   0.365246
-3.72535   0.369963
-3.71535   0.374828
-3.70535   0.37985
-3.69535   0.385037
-3.68535   0.3904
-3.67535   0.395949
-3.66535   0.401698
-3.65535   0.407658
-3.64535   0.413844
-3.63535   0.420272
-3.62535   0.42696
-3.61535   0.433926
-3.60535   0.441193
-3.59535   0.448784
-3.58535   0.456726
-3.57535   0.465048
-3.56535   0.473784
-3.55535   0.482972
-3.54535   0.492655
-3.53535   0.502881
-3.52535   0.513707
-3.51535   0.525196
-3.50535   0.537422
-3.49535   0.550472
-3.48535   0.564445
-3.47535   0.579461
-3.46535   0.59566
-3.45535   0.613209
-3.44535   0.632311
-3.43535   0.653213
-3.42535   0.676218
-3.41535   0.701705
-3.40535   0.730151
-3.39535   0.762169
-3.38535   0.798557
-3.37535   0.840377
-3.36535   0.889075
-3.35535   0.946672
-3.34535   1.01608
-3.33535   1.10168
-3.32535   1.21033
-3.31535   1.35343
-3.30535   1.55145
-3.29535   1.84476
-3.28535   2.32436
-3.27535   3.23881
-3.26535   5.5048
-3.25535   14.854
-3.24535   66.3832
-3.23535   16.6272
-3.22535   10.7342
-3.21535   23.6583
-3.20535   56.864
-3.19535   15.4211
-3.18535   14.4802
-3.17535   35.526
-3.16535   113.175
-3.15535   89.8744
-3.14535   36.3138
-3.13535   60.9879
-3.12535   26.4668
-3.11535   10.8579
-3.10535   9.75557
-3.09535   19.8082
-3.08535   64.5196
-3.07535   14.8183
-3.06535   8.16001
-3.05535   8.00212
-3.04535   11.9161
-3.03535   33.2049
-3.02535   102.918
-3.01535   36.0461
-3.00535   22.4809
-2.99535   67.4594
-2.98535   28.0867
-2.97535   24.122
-2.96535   64.1276
-2.95535   182.395
-2.94535   141.37
-2.93535   36.4868
-2.92535   16.2731
-2.91535   13.3339
-2.90535   25.7837
-2.89535   56.412
-2.88535   13.7282
-2.87535   8.03398
-2.86535   7.19373
-2.85535   8.39375
-2.84535   13.4554
-2.83535   41.7549
-2.82535   64.4164
-2.81535   118.763
-2.80535   39.368
-2.79535   27.5014
-2.78535   79.8265
-2.77535   69.3183
-2.76535   30.1522
-2.75535   13.5418
-2.74535   12.1028
-2.73535   17.1638
-2.72535   48.8022
-2.71535   110.383
-2.70535   37.7219
-2.69535   81.7924
-2.68535   83.8283
-2.67535   114.515
-2.66535   139.198
-2.65535   82.0978
-2.64535   129.745
-2.63535   95.3244
-2.62535   29.3481
-2.61535   22.7931
-2.60535   37.4718
-2.59535   141.786
-2.58535   126.376
-2.57535   115.943
-2.56535   61.2441
-2.55535   38.8007
-2.54535   113.557
-2.53535   110.983
-2.52535   42.5374
-2.51535   94.468
-2.50535   85.1821
-2.49535   51.3036
-2.48535   142.36
-2.47535   96.8169
-2.46535   47.483
-2.45535   85.3353
-2.44535   56.0564
-2.43535   50.2912
-2.42535   29.4292
-2.41535   60.6335
-2.40535   189.111
-2.39535   95.8896
-2.38535   43.7958
-2.37535   97.1882
-2.36535   125.796
-2.35535   141.056
-2.34535   85.9107
-2.33535   36.5513
-2.32535   75.7244
-2.31535   35.7749
-2.30535   33.6823
-2.29535   92.582
-2.28535   190.182
-2.27535   229.505
-2.26535   123.59
-2.25535   51.089
-2.24535   100.043
-2.23535   146.844
-2.22535   63.3053
-2.21535   131.036
-2.20535   186.33
-2.19535   141.479
-2.18535   70.7468
-2.17535   24.6167
-2.16535   16.1464
-2.15535   14.1493
-2.14535   15.1959
-2.13535   20.4997
-2.12535   41.7743
-2.11535   138.779
-2.10535   180.385
-2.09535   98.0335
-2.08535   196.763
-2.07535   216.392
-2.06535   78.8022
-2.05535   53.9761
-2.04535   137.016
-2.03535   165.208
-2.02535   132.971
-2.01535   101.876
-2.00535   72.3165
-1.99535   111.815
-1.98535   75.5118
-1.97535   126.809
-1.96535   32.8458
-1.95535   20.1367
-1.94535   20.2518
-1.93535   34.2625
-1.92535   134.702
-1.91535   54.6697
-1.90535   77.0995
-1.89535   100.06
-1.88535   82.8008
-1.87535   58.7614
-1.86535   106.758
-1.85535   246.481
-1.84535   169.179
-1.83535   135.195
-1.82535   82.6193
-1.81535   171.983
-1.80535   189.551
-1.79535   190.556
-1.78535   174.273
-1.77535   285.235
-1.76535   131.402
-1.75535   187.567
-1.74535   178.205
-1.73535   422.558
-1.72535   275.367
-1.71535   290.805
-1.70535   163.128
-1.69535   174.736
-1.68535   187.04
-1.67535   86.3032
-1.66535   144.261
-1.65535   313.687
-1.64535   388.134
-1.63535   325.037
-1.62535   631.377
-1.61535   489.205
-1.60535   274.36
-1.59535   158.47
-1.58535   345.38
-1.57535   251.184
-1.56535   426.612
-1.55535   251.785
-1.54535   274.354
-1.53535   270.285
-1.52535   317.616
-1.51535   358.705
-1.50535   292.922
-1.49535   326.592
-1.48535   154.041
-1.47535   170.738
-1.46535   191.607
-1.45535   230.734
-1.44535   372.018
-1.43535   524.995
-1.42535   343.524
-1.41535   423.632
-1.40535   393.91
-1.39535   371.073
-1.38535   613.981
-1.37535   564.26
-1.36535   332.635
-1.35535   293.569
-1.34535   464.855
-1.33535   440.391
-1.32535   516.13
-1.31535   379.851
-1.30535   483.261
-1.29535   461.219
-1.28535   477.419
-1.27535   491.127
-1.26535   495.199
-1.25535   473.84
-1.24535   354.639
-1.23535   394.008
-1.22535   433.03
-1.21535   431.459
-1.20535   487.531
-1.19535   635.5
-1.18535   574.597
-1.17535   688.628
-1.16535   614.883
-1.15535   752.501
-1.14535   735.43
-1.13535   561.103
-1.12535   540.725
-1.11535   383.79
-1.10535   404.702
-1.09535   461.32
-1.08535   362.451
-1.07535   549.842
-1.06535   474.974
-1.05535   472.484
-1.04535   466.956
-1.03535   575.74
-1.02535   386.864
-1.01535   409.669
-1.00535   646.018
-0.995345   697.706
-0.985345   468.974
-0.975345   364.675
-0.965345   506.834
-0.955345   365.399
-0.945345   520.356
-0.935345   303.275
-0.925345   427.78
-0.915345   442.001
-0.905345   511.457
-0.895345   574.97
-0.885345   607.163
-0.875345   583.17
-0.865345   657.018
-0.855345   786.443
-0.845345   653.675
-0.835345   656.129
-0.825345   720.534
-0.815345   675.159
-0.805345   619.1
-0.795345   604.973
-0.785345   839.882
-0.775345   617.851
-0.765345   381.48
-0.755345   504.163
-0.745345   371.446
-0.735345   456.98
-0.725345   559.108
-0.715345   589.632
-0.705345   458.257
-0.695345   726
-0.685345   563.282
-0.675345   627.343
-0.665345   755.617
-0.655345   956.975
-0.645345   409.825
-0.635345   614.713
-0.625345   726.523
-0.615345   607.321
-0.605345   419.851
-0.595345   680.391
-0.585345   536.441
-0.575345   746.874
-0.565345   682.141
-0.555345   436.951
-0.545345   366.154
-0.535345   428.209
-0.525345   582.948
-0.515345   674.932
-0.505345   801.506
-0.495345   535.491
-0.485345   449.261
-0.475345   404.884
-0.465345   280.709
-0.455345   268.819
-0.445345   337.928
-0.435345   316.89
-0.425345   324.942
-0.415345   254.088
-0.405345   226.033
-0.395345   260.495
-0.385345   229.304
-0.375345   326.418
-0.365345   371.422
-0.355345   194.427
-0.345345   396.115
-0.335345   309.252
-0.325345   262.05
-0.315345   473.275
-0.305345   361.051
-0.295345   309.657
-0.285345   190.672
-0.275345   398.595
-0.265345   255.016
-0.255345   300.51
-0.245345   286.917
-0.235345   263.462
-0.225345   388.53
-0.215345   267.461
-0.205345   252.088
-0.195345   288.99
-0.185345   245.151
-0.175345   321.426
-0.165345   253.003
-0.155345   356.4
-0.145345   386.97
-0.135345   365.852
-0.125345   142.087
-0.115345   132.682
-0.105345   407.376
-0.0953452   264.591
-0.0853452   380.607
-0.0753452   314.65
-0.0653452   656.297
-0.0553452   474.778
-0.0453452   606.817
-0.0353452   563.672
-0.0253452   513.859
-0.0153452   541.424
-0.00534519   630.553
0.00465481   623.012
0.0146548   552.507
0.0246548   522.939
0.0346548   576.307
0.0446548   609.302
0.0546548   467.588
0.0646548   672.903
0.0746548   333.418
0.0846548   381.884
0.0946548   264.092
0.104655   425.968
0.114655   138.749
0.124655   135.334
0.134655   355.111
0.144655   379.34
0.154655   361.896
0.164655   269.11
0.174655   308.588
0.184655   250.984
0.194655   277.692
0.204655   255.931
0.214655   271.393
0.224655   381.592
0.234655   265.715
0.244655   284.121
0.254655   300.497
0.264655   240.891
0.274655   429.178
0.284655   186.821
0.294655   307.039
0.304655   345.926
0.314655   493.73
0.324655   258.847
0.334655   301.411
0.344655   402.794
0.354655   193.071
0.364655   360.958
0.374655   321.987
0.384655   240.394
0.394655   262.91
0.404655   238.482
0.414655   245.041
0.424655   313.486
0.434655   314.244
0.444655   335.215
0.454655   287.439
0.464655   263.392
0.474655   394.269
0.484655   451.232
0.494655   501.814
0.504655   778.417
0.514655   681.666
0.524655   600.98
0.534655   430.284
0.544655   384.544
0.554655   425.489
0.564655   671.53
0.574655   767.309
0.584655   531.498
0.594655   662.192
0.604655   434.86
0.614655   596.368
0.624655   732.756
0.634655   622.66
0.644655   405.701
0.654655   926.009
0.664655   774.126
0.674655   656.021
0.684655   556.611
0.694655   726.487
0.704655   465.441
0.714655   595.635
0.724655   555.177
0.734655   471.012
0.744655   362.705
0.754655   509.197
0.764655   374.617
0.774655   590.001
0.784655   853.794
0.794655   616.862
0.804655   624.247
0.814655   660.544
0.824655   715.63
0.834655   672.36
0.844655   634.785
0.854655   796.099
0.864655   653.377
0.874655   587.539
0.884655   601.25
0.894655   589.697
0.904655   498.365
0.914655   447.768
0.924655   446.252
0.934655   294.517
0.944655   516.321
0.954655   361.301
0.964655   495.13
0.974655   377.079
0.984655   454.667
0.994655   685.353
1.00465   655.878
1.01465   412.456
1.02465   393.443
1.03465   582.958
1.04465   471.474
1.05465   476.752
1.06465   479.527
1.07465   554.358
1.08465   377.602
1.09465   455.709
1.10465   406.833
1.11465   375.786
1.12465   523.865
1.13465   551.499
1.14465   732.71
1.15465   760.156
1.16465   620.921
1.17465   702.315
1.18465   560.583
1.19465   632.959
1.20465   486.468
1.21465   429.506
1.22465   428.458
1.23465   395.133
1.24465   341.818
1.25465   464.042
1.26465   501.549
1.27465   482.587
1.28465   485.036
1.29465   457.847
1.30465   493.236
1.31465   386.052
1.32465   493.436
1.33465   447.858
1.34465   458.597
1.35465   305.357
1.36465   319.217
1.37465   543.946
1.38465   641.215
1.39465   375.58
1.40465   370.802
1.41465   453.761
1.42465   344.169
1.43465   488.158
1.44465   408.081
1.45465   243.784
1.46465   189.968
1.47465   182.475
1.48465   145.599
1.49465   330.024
1.50465   305.112
1.51465   349.661
1.52465   327.501
1.53465   285.244
1.54465   264.674
1.55465   247.731
1.56465   423.069
1.57465   248.154
1.58465   356.273
1.59465   162.833
1.60465   256.797
1.61465   488.491
1.62465   626.64
1.63465   332.217
1.64465   394.997
1.65465   325.53
1.66465   156.924
1.67465   85.6076
1.68465   180.538
1.69465   165.501
1.70465   159.989
1.71465   307.75
1.72465   263.871
1.73465   424.516
1.74465   192.767
1.75465   179.054
1.76465   129.258
1.77465   291.425
1.78465   170.397
1.79465   194.933
1.80465   195.212
1.81465   165.459
1.82465   85.4081
1.83465   130.321
1.84465   165.522
1.85465   254.565
1.86465   116.315
1.87465   57.7055
1.88465   87.6817
1.89465   91.408
1.90465   84.8581
1.91465   52.2947
1.92465   140.753
1.93465   36.6424
1.94465   20.5852
1.95465   19.8744
1.96465   31.0212
1.97465   115.504
1.98465   77.3188
1.99465   112.821
2.00465   75.2584
2.01465   103.767
2.02465   121.675
2.03465   171.947
2.04465   141.689
2.05465   55.5957
2.06465   73.1469
2.07465   215.887
2.08465   205.596
2.09465   103.1
2.10465   164.778
2.11465   143.683
2.12465   45.0869
2.13465   21.1684
2.14465   15.3863
2.15465   14.13
2.16465   15.8804
2.17465   23.5767
2.18465   63.8365
2.19465   141.005
2.20465   183.947
2.21465   132.867
2.22465   64.3241
2.23465   134.668
2.24465   111.031
2.25465   50.7818
2.26465   111.871
2.27465   232.58
2.28465   195.817
2.29465   101.328
2.30465   34.8964
2.31465   34.1883
2.32465   79.5423
2.33465   36.4715
2.34465   77.4479
2.35465   143.631
2.36465   128.327
2.37465   101.293
2.38465   44.1133
2.39465   86.5812
2.40465   195.352
2.41465   66.6559
2.42465   29.8209
2.43465   46.1159
2.44465   59.3902
2.45465   83.4358
2.46465   46.8704
2.47465   98.2873
2.48465   141.129
2.49465   53.7218
2.50465   78.051
2.51465   101.206
2.52465   42.4868
2.53465   99.1323
2.54465   127.462
2.55465   39.8053
2.56465   56.3617
2.57465   113.723
2.58465   121.208
2.59465   148.692
2.60465   40.1349
2.61465   23.006
2.62465   28.0979
2.63465   86.8899
2.64465   131.324
2.65465   82.6458
2.66465   137.066
2.67465   120.239
2.68465   88.9185
2.69465   86.6867
2.70465   37.5391
2.71465   99.9008
2.72465   54.5875
2.73465   17.9375
2.74465   12.2139
2.75465   13.2154
2.76465   27.5463
2.77465   73.3809
2.78465   80.207
2.79465   28.5769
2.80465   36.4189
2.81465   118.168
2.82465   63.4376
2.83465   46.7737
2.84465   14.1498
2.85465   8.56842
2.86465   7.21204
2.87465   7.89186
2.88465   12.9347
2.89465   50.6841
2.90465   28.3808
2.91465   13.4786
2.92465   15.7542
2.93465   33.6701
2.94465   134.145
2.95465   184.557
2.96465   71.4429
2.97465   24.9499
2.98465   26.5055
2.99465   71.3228
3.00465   23.1259
3.01465   33.1082
3.02465   102.875
3.03465   36.9614
3.04465   12.4728
3.05465   8.11322
3.06465   8.03126
3.07465   13.8185
3.08465   60.1205
3.09465   21.7379
3.10465   9.93407
3.11465   10.5481
3.12465   24.0236
3.13465   65.9459
3.14465   34.7067
3.15465   91.3574
3.16465   114.042
3.17465   39.3294
3.18465   14.9414
3.19465   14.8096
3.20465   51.2574
3.21465   26.2608
3.22465   10.8964
3.23465   15.4442
3.24465   65.2484
3.25465   16.4056
3.26465   5.78051
3.27465   3.33259
3.28465   2.36889
3.29465   1.87032
3.30465   1.56799
3.31465   1.36502
3.32465   1.21893
3.33465   1.10834
3.34465   1.02141
3.35465   0.951044
3.36465   0.892738
3.37465   0.843498
3.38465   0.801255
3.39465   0.76453
3.40465   0.732239
3.41465   0.703568
3.42465   0.677893
3.43465   0.65473
3.44465   0.633693
3.45465   0.614475
3.46465   0.596826
3.47465   0.580539
3.48465   0.565447
3.49465   0.551405
3.50465   0.538295
3.51465   0.526015
3.52465   0.514478
3.53465   0.503609
3.54465   0.493343
3.55465   0.483624
3.56465   0.474403
3.57465   0.465637
3.58465   0.457288
3.59465   0.449321
3.60465   0.441706
3.61465   0.434418
3.62465   0.427431
3.63465   0.420725
3.64465   0.41428
3.65465   0.408077
3.66465   0.402102
3.67465   0.39634
3.68465   0.390777
3.69465   0.385402
3.70465   0.380203
3.71465   0.37517
3.72465   0.370294
3.73465   0.365567
3.74465   0.36098
3.75465   0.356527
3.76465   0.3522
3.77465   0.347993
3.78465   0.3439
3.79465   0.339916
3.80465   0.336036
3.81465   0.332255
3.82465   0.328568
3.83465   0.324972
3.84465   0.321462
3.85465   0.318036
3.86465   0.314689
3.87465   0.311418
3.88465   0.30822
3.89465   0.305093
3.90465   0.302034
3.91465   0.299039
3.92465   0.296108
3.93465   0.293237
3.94465   0.290424
3.95465   0.287667
3.96465   0.284965
3.97465   0.282315
3.98465   0.279716
3.99465   0.277166
4.00465   0.274664
4.01465   0.272207
4.02465   0.269795
4.03465   0.267426
4.04465   0.265099
4.05465   0.262813
4.06465   0.260566
4.07465   0.258357
4.08465   0.256185
4.09465   0.254049
4.10465   0.251948
4.11465   0.249882
4.12465   0.247848
4.13465   0.245847
4.14465   0.243877
4.15465   0.241937
4.16465   0.240028
4.17465   0.238147
4.18465   0.236295
4.19465   0.23447
4.20465   0.232672
4.21465   0.230901
4.22465   0.229155
4.23465   0.227434
4.24465   0.225737
